{
    "resourceType": "Bundle",
    "id": "AllopurinolTabletLabelBundle",
    "type": "document",
    "identifier": {
        "system": "urn:ietf:rfc:3986",
        "value": "urn:uuid:2ca799ba-56af-4fa6-ac9c-44f736ef1a02"
    },
    "timestamp": "2017-02-24T00:00:00.0000Z",
    "language": "en",
    "entry": [
        {
            "fullUrl": "Composition/compositionaae8d931abe2f2d9085b87555b9bb088",
            "resource": {
                "resourceType": "Composition",
                "id": "compositionaae8d931abe2f2d9085b87555b9bb088",
                "meta": {
                    "profile": [
                        "http://hl7.org/fhir/uv/emedicinal-product-info/StructureDefinition/Composition-uv-epi"
                    ]
                },
                "identifier": [
                    {
                        "system": "urn:ietf:rfc:3986",
                        "value": "urn:uuid:c9a01871-bbf8-4b31-9b9b-9fa8c0997b29"
                    }
                ],
                "status": "final",
                "type": {
                    "coding": [
                        {
                            "code": "100000155538",
                            "system": "https://spor.ema.europa.eu/rmswi/"
                        }
                    ],
                    "text": "Package Leaflet"
                },
                "subject": [
                    {
                        "reference": "http://example.org/MedicinalProductDefinition/AllopurinolUSPDefinition"
                    }
                ],
                "date": "2022-02-16T13:28:17Z",
                "author": [
                    {
                        "reference": "http://example.org/Organization/AidarexPharmaceuticals"
                    }
                ],
                "title": "TEST PURPOSES ONLY - Allopurinol",
                "attester": [
                    {
                        "mode": {
                            "coding": [
                                {
                                    "code": "official",
                                    "system": "http://hl7.org/fhir/composition-attestation-mode"
                                }
                            ]
                        },
                        "time": "2022-02-16T13:28:17Z"
                    }
                ],
                "language": "en",
                "category": [
                    {
                        "coding": [
                            {
                                "code": "R",
                                "system": "http://hl7.eu/fhir/ig/gravitate-health/CodeSystem/epicategory-cs",
                                "display": "Raw"
                            }
                        ]
                    }
                ],
                "section": [
                    {
                        "title": "B. Package Leaflet",
                        "code": {
                            "coding": [
                                {
                                    "code": "100000155538",
                                    "system": "https://spor.ema.europa.eu/rmswi/"
                                }
                            ],
                            "text": "B. PACKAGE LEAFLET"
                        },
                        "text": {
                            "status": "additional",
                            "div": "<div xmlns=\"http://www.w3.org/1999/xhtml\">unavailable</div>"
                        },
                        "emptyReason": {
                            "coding": [
                                {
                                    "code": "unavailable",
                                    "system": "http://terminology.hl7.org/CodeSystem/list-empty-reason"
                                }
                            ]
                        },
                        "section": [
                            {
                                "title": "Package leaflet: Information for the user",
                                "code": {
                                    "coding": [
                                        {
                                            "code": "100000155538",
                                            "system": "https://spor.ema.europa.eu/rmswi/"
                                        }
                                    ],
                                    "text": "Package leaflet: Information for the user"
                                },
                                "text": {
                                    "status": "additional",
                                    "div": "<div xmlns=\"http://www.w3.org/1999/xhtml\">unavailable</div>"
                                },
                                "emptyReason": {
                                    "coding": [
                                        {
                                            "code": "unavailable",
                                            "system": "http://terminology.hl7.org/CodeSystem/list-empty-reason"
                                        }
                                    ]
                                }
                            },
                            {
                                "title": "What is in this leaflet",
                                "code": {
                                    "coding": [
                                        {
                                            "code": "100000155538",
                                            "system": "https://spor.ema.europa.eu/rmswi/"
                                        }
                                    ],
                                    "text": "What is in this leaflet"
                                },
                                "text": {
                                    "status": "additional",
                                    "div": "<div xmlns=\"http://www.w3.org/1999/xhtml\">unavailable</div>"
                                },
                                "emptyReason": {
                                    "coding": [
                                        {
                                            "code": "unavailable",
                                            "system": "http://terminology.hl7.org/CodeSystem/list-empty-reason"
                                        }
                                    ]
                                }
                            },
                            {
                                "title": "1. What the product is and what it is used for",
                                "code": {
                                    "coding": [
                                        {
                                            "code": "100000155538",
                                            "system": "https://spor.ema.europa.eu/rmswi/"
                                        }
                                    ],
                                    "text": "1. What the product is and what it is used for"
                                },
                                "text": {
                                    "status": "additional",
                                    "div": "<div xmlns=\"http://www.w3.org/1999/xhtml\">unavailable</div>"
                                },
                                "emptyReason": {
                                    "coding": [
                                        {
                                            "code": "unavailable",
                                            "system": "http://terminology.hl7.org/CodeSystem/list-empty-reason"
                                        }
                                    ]
                                }
                            },
                            {
                                "title": "2. What you need to know before you take the product",
                                "code": {
                                    "coding": [
                                        {
                                            "code": "100000155538",
                                            "system": "https://spor.ema.europa.eu/rmswi/"
                                        }
                                    ],
                                    "text": "2. What you need to know before you take the product"
                                },
                                "text": {
                                    "status": "additional",
                                    "div": "<div xmlns=\"http://www.w3.org/1999/xhtml\">unavailable</div>"
                                },
                                "emptyReason": {
                                    "coding": [
                                        {
                                            "code": "unavailable",
                                            "system": "http://terminology.hl7.org/CodeSystem/list-empty-reason"
                                        }
                                    ]
                                }
                            },
                            {
                                "title": "3. How to take the product",
                                "code": {
                                    "coding": [
                                        {
                                            "code": "100000155538",
                                            "system": "https://spor.ema.europa.eu/rmswi/"
                                        }
                                    ],
                                    "text": "3. How to take the product"
                                },
                                "text": {
                                    "status": "additional",
                                    "div": "<div xmlns=\"http://www.w3.org/1999/xhtml\">unavailable</div>"
                                },
                                "emptyReason": {
                                    "coding": [
                                        {
                                            "code": "unavailable",
                                            "system": "http://terminology.hl7.org/CodeSystem/list-empty-reason"
                                        }
                                    ]
                                }
                            },
                            {
                                "title": "4. Possible side effects",
                                "code": {
                                    "coding": [
                                        {
                                            "code": "100000155538",
                                            "system": "https://spor.ema.europa.eu/rmswi/"
                                        }
                                    ],
                                    "text": "4. Possible side effects"
                                },
                                "text": {
                                    "status": "additional",
                                    "div": "<div xmlns=\"http://www.w3.org/1999/xhtml\">unavailable</div>"
                                },
                                "emptyReason": {
                                    "coding": [
                                        {
                                            "code": "unavailable",
                                            "system": "http://terminology.hl7.org/CodeSystem/list-empty-reason"
                                        }
                                    ]
                                }
                            },
                            {
                                "title": "5. How to store the product",
                                "code": {
                                    "coding": [
                                        {
                                            "code": "100000155538",
                                            "system": "https://spor.ema.europa.eu/rmswi/"
                                        }
                                    ],
                                    "text": "5. How to store the product"
                                },
                                "text": {
                                    "status": "additional",
                                    "div": "<div xmlns=\"http://www.w3.org/1999/xhtml\">unavailable</div>"
                                },
                                "emptyReason": {
                                    "coding": [
                                        {
                                            "code": "unavailable",
                                            "system": "http://terminology.hl7.org/CodeSystem/list-empty-reason"
                                        }
                                    ]
                                }
                            },
                            {
                                "title": "6. Contents of the pack and other information",
                                "code": {
                                    "coding": [
                                        {
                                            "code": "100000155538",
                                            "system": "https://spor.ema.europa.eu/rmswi/"
                                        }
                                    ],
                                    "text": "6. Contents of the pack and other information"
                                },
                                "text": {
                                    "status": "additional",
                                    "div": "<div xmlns=\"http://www.w3.org/1999/xhtml\">unavailable</div>"
                                },
                                "emptyReason": {
                                    "coding": [
                                        {
                                            "code": "unavailable",
                                            "system": "http://terminology.hl7.org/CodeSystem/list-empty-reason"
                                        }
                                    ]
                                }
                            }
                        ]
                    }
                ]
            }
        },
        {
            "fullUrl": "http://example.org/Organization/AidarexPharmaceuticals",
            "resource": {
                "resourceType": "Organization",
                "id": "AidarexPharmaceuticals",
                "meta": {
                    "profile": [
                        "http://hl7.org/fhir/uv/emedicinal-product-info/StructureDefinition/Organization-uv-epi"
                    ]
                },
                "text": {
                    "status": "generated",
                    "div": "<div xmlns=\"http://www.w3.org/1999/xhtml\"><p><b>Generated Narrative: Organization</b><a name=\"AidarexPharmaceuticals\"> </a></p><div style=\"display: inline-block; background-color: #d9e0e7; padding: 6px; margin: 4px; border: 1px solid #8da1b4; border-radius: 5px; line-height: 60%\"><p style=\"margin-bottom: 0px\">Resource Organization &quot;AidarexPharmaceuticals&quot; </p><p style=\"margin-bottom: 0px\">Profile: <a href=\"StructureDefinition-IdentifiedLabeler.html\">IdentifiedLabeler</a></p></div><p><b>identifier</b>: id:\u00a0801503249</p><p><b>type</b>: An organization that submits product labels. <span style=\"background: LightGoldenRodYellow; margin: 4px; border: 1px solid khaki\"> (<a href=\"CodeSystem-codesystem-organizationTypes.html\">SPL Organization Types</a>#Labeler)</span></p><p><b>name</b>: Aidarex Pharmaceuticals LLC</p></div>"
                },
                "identifier": [
                    {
                        "system": "urn:oid:1.3.6.1.4.1.519.1",
                        "value": "801503249"
                    }
                ],
                "type": [
                    {
                        "coding": [
                            {
                                "system": "http://hl7.org/fhir/us/spl/CodeSystem/codesystem-organizationTypes",
                                "code": "Labeler"
                            }
                        ]
                    }
                ],
                "name": "Aidarex Pharmaceuticals LLC"
            }
        },
        {
            "fullUrl": "http://example.org/MedicinalProductDefinition/AllopurinolUSPDefinition",
            "resource": {
                "resourceType": "MedicinalProductDefinition",
                "id": "AllopurinolUSPDefinition",
                "meta": {
                    "profile": [
                        "http://hl7.org/fhir/uv/emedicinal-product-info/StructureDefinition/MedicinalProductDefinition-uv-epi"
                    ]
                },
                "text": {
                    "status": "generated",
                    "div": "<div xmlns=\"http://www.w3.org/1999/xhtml\"><p><b>Generated Narrative: MedicinalProductDefinition</b><a name=\"AllopurinolUSPDefinition\"> </a></p><div style=\"display: inline-block; background-color: #d9e0e7; padding: 6px; margin: 4px; border: 1px solid #8da1b4; border-radius: 5px; line-height: 60%\"><p style=\"margin-bottom: 0px\">Resource MedicinalProductDefinition &quot;AllopurinolUSPDefinition&quot; </p><p style=\"margin-bottom: 0px\">Profile: <a href=\"StructureDefinition-SubmittedMedicinalProduct.html\">SubmittedMedicinalProduct</a></p></div><p><b>identifier</b>: id:\u00a053217-187</p><p><b>route</b>: ORAL <span style=\"background: LightGoldenRodYellow; margin: 4px; border: 1px solid khaki\"> (<a href=\"http://terminology.hl7.org/5.0.0/CodeSystem-v3-nciThesaurus.html\">NCI Thesaurus</a>#C38288)</span></p><h3>MarketingStatuses</h3><table class=\"grid\"><tr><td style=\"display: none\">-</td><td><b>Status</b></td><td><b>DateRange</b></td></tr><tr><td style=\"display: none\">*</td><td>Active <span style=\"background: LightGoldenRodYellow; margin: 4px; border: 1px solid khaki\"> (<a href=\"http://hl7.org/fhir/R5/codesystem-publication-status.html\">PublicationStatus</a>#active)</span></td><td>2009-04-06 --&gt; (ongoing)</td></tr></table><blockquote><p><b>name</b></p><p><b>productName</b>: Allopurinol</p><p><b>type</b>: Proprietary Name <span style=\"background: LightGoldenRodYellow; margin: 4px; border: 1px solid khaki\"> (<a href=\"CodeSystem-codesystem-submittedMedicinalProductNameTypes.html\">Medicinal Product Name Types</a>#PROPRIETARY)</span></p></blockquote><blockquote><p><b>name</b></p><p><b>productName</b>: Allopurinol</p><p><b>type</b>: Generic Name (Non-Proprietary) <span style=\"background: LightGoldenRodYellow; margin: 4px; border: 1px solid khaki\"> (<a href=\"CodeSystem-codesystem-submittedMedicinalProductNameTypes.html\">Medicinal Product Name Types</a>#NONPROPRIETARY)</span></p></blockquote><blockquote><p><b>crossReference</b></p><h3>Products</h3><table class=\"grid\"><tr><td style=\"display: none\">-</td><td><b>Concept</b></td></tr><tr><td style=\"display: none\">*</td><td>Allopurinol  (product) <span style=\"background: LightGoldenRodYellow; margin: 4px; border: 1px solid khaki\"> (<a href=\"http://terminology.hl7.org/5.0.0/CodeSystem-v3-ndc.html\">National drug codes</a>#0591-5543)</span></td></tr></table><p><b>type</b>: C64637 <span style=\"background: LightGoldenRodYellow; margin: 4px; border: 1px solid khaki\"> (<a href=\"http://terminology.hl7.org/5.0.0/CodeSystem-v3-nciThesaurus.html\">NCI Thesaurus</a>#C64637)</span></p></blockquote></div>"
                },
                "identifier": [
                    {
                        "system": "http://hl7.org/fhir/sid/ndc",
                        "value": "53217-187"
                    }
                ],
                "route": [
                    {
                        "coding": [
                            {
                                "system": "http://ncicb.nci.nih.gov/xml/owl/EVS/Thesaurus.owl",
                                "code": "C38288",
                                "display": "ORAL"
                            }
                        ]
                    }
                ],
                "marketingStatus": [
                    {
                        "status": {
                            "coding": [
                                {
                                    "system": "http://hl7.org/fhir/publication-status",
                                    "code": "active"
                                }
                            ]
                        },
                        "dateRange": {
                            "start": "2009-04-06"
                        }
                    }
                ],
                "name": [
                    {
                        "productName": "Allopurinol",
                        "type": {
                            "coding": [
                                {
                                    "system": "http://hl7.org/fhir/us/spl/CodeSystem/codesystem-submittedMedicinalProductNameTypes",
                                    "code": "PROPRIETARY"
                                }
                            ]
                        }
                    },
                    {
                        "productName": "Allopurinol",
                        "type": {
                            "coding": [
                                {
                                    "system": "http://hl7.org/fhir/us/spl/CodeSystem/codesystem-submittedMedicinalProductNameTypes",
                                    "code": "NONPROPRIETARY"
                                }
                            ]
                        }
                    }
                ],
                "crossReference": [
                    {
                        "product": {
                            "concept": {
                                "coding": [
                                    {
                                        "system": "http://hl7.org/fhir/sid/ndc",
                                        "code": "0591-5543"
                                    }
                                ]
                            }
                        },
                        "type": {
                            "coding": [
                                {
                                    "system": "http://ncicb.nci.nih.gov/xml/owl/EVS/Thesaurus.owl",
                                    "code": "C64637"
                                }
                            ]
                        }
                    }
                ]
            }
        },
        {
            "fullUrl": "http://example.org/ManufacturedItemDefinition/AllopurinolTablet",
            "resource": {
                "resourceType": "ManufacturedItemDefinition",
                "id": "AllopurinolTablet",
                "meta": {
                    "profile": [
                        "http://hl7.org/fhir/uv/emedicinal-product-info/StructureDefinition/ManufacturedItemDefinition-uv-epi"
                    ]
                },
                "text": {
                    "status": "generated",
                    "div": "<div xmlns=\"http://www.w3.org/1999/xhtml\"><p><b>Generated Narrative: ManufacturedItemDefinition</b><a name=\"AllopurinolTablet\"> </a></p><div style=\"display: inline-block; background-color: #d9e0e7; padding: 6px; margin: 4px; border: 1px solid #8da1b4; border-radius: 5px; line-height: 60%\"><p style=\"margin-bottom: 0px\">Resource ManufacturedItemDefinition &quot;AllopurinolTablet&quot; </p><p style=\"margin-bottom: 0px\">Profile: <a href=\"StructureDefinition-SubmittedManufacturedItem.html\">SubmittedManufacturedItem</a></p></div><p><b>status</b>: active</p><p><b>manufacturedDoseForm</b>: TABLET <span style=\"background: LightGoldenRodYellow; margin: 4px; border: 1px solid khaki\"> (ncimeta.nci.nih.gov#C42998)</span></p><blockquote><p><b>property</b></p><p><b>type</b>: Color <span style=\"background: LightGoldenRodYellow; margin: 4px; border: 1px solid khaki\"> (<a href=\"CodeSystem-codesystem-characteristicTypes.html\">SPL Product Characteristic Types</a>#SPLCOLOR)</span></p><p><b>value</b>: WHITE <span style=\"background: LightGoldenRodYellow; margin: 4px; border: 1px solid khaki\"> (<a href=\"http://terminology.hl7.org/5.0.0/CodeSystem-v3-nciThesaurus.html\">NCI Thesaurus</a>#C48325)</span></p></blockquote><blockquote><p><b>property</b></p><p><b>type</b>: Imprint <span style=\"background: LightGoldenRodYellow; margin: 4px; border: 1px solid khaki\"> (<a href=\"CodeSystem-codesystem-characteristicTypes.html\">SPL Product Characteristic Types</a>#SPLIMPRINT)</span></p><p><b>value</b>: DAN;DAN;5543 <span style=\"background: LightGoldenRodYellow; margin: 4px; border: 1px solid khaki\"> ()</span></p></blockquote><blockquote><p><b>property</b></p><p><b>type</b>: Score <span style=\"background: LightGoldenRodYellow; margin: 4px; border: 1px solid khaki\"> (<a href=\"CodeSystem-codesystem-characteristicTypes.html\">SPL Product Characteristic Types</a>#SPLSCORE)</span></p><p><b>value</b>: 2</p></blockquote><blockquote><p><b>property</b></p><p><b>type</b>: Shape <span style=\"background: LightGoldenRodYellow; margin: 4px; border: 1px solid khaki\"> (<a href=\"CodeSystem-codesystem-characteristicTypes.html\">SPL Product Characteristic Types</a>#SPLSHAPE)</span></p><p><b>value</b>: ROUND <span style=\"background: LightGoldenRodYellow; margin: 4px; border: 1px solid khaki\"> (<a href=\"http://terminology.hl7.org/5.0.0/CodeSystem-v3-nciThesaurus.html\">NCI Thesaurus</a>#C48348)</span></p></blockquote><blockquote><p><b>property</b></p><p><b>type</b>: Size <span style=\"background: LightGoldenRodYellow; margin: 4px; border: 1px solid khaki\"> (<a href=\"CodeSystem-codesystem-characteristicTypes.html\">SPL Product Characteristic Types</a>#SPLSIZE)</span></p><p><b>value</b>: 10 mm<span style=\"background: LightGoldenRodYellow\"> (Details: UCUM code mm = 'mm')</span></p></blockquote></div>"
                },
                "status": "active",
                "manufacturedDoseForm": {
                    "coding": [
                        {
                            "system": "http://ncimeta.nci.nih.gov",
                            "code": "C42998",
                            "display": "TABLET"
                        }
                    ]
                },
                "property": [
                    {
                        "type": {
                            "coding": [
                                {
                                    "system": "http://hl7.org/fhir/us/spl/CodeSystem/codesystem-characteristicTypes",
                                    "code": "SPLCOLOR"
                                }
                            ]
                        },
                        "valueCodeableConcept": {
                            "coding": [
                                {
                                    "system": "http://ncicb.nci.nih.gov/xml/owl/EVS/Thesaurus.owl",
                                    "code": "C48325",
                                    "display": "WHITE"
                                }
                            ]
                        }
                    },
                    {
                        "type": {
                            "coding": [
                                {
                                    "system": "http://hl7.org/fhir/us/spl/CodeSystem/codesystem-characteristicTypes",
                                    "code": "SPLIMPRINT"
                                }
                            ]
                        },
                        "valueCodeableConcept": {
                            "text": "DAN;DAN;5543"
                        }
                    },
                    {
                        "type": {
                            "coding": [
                                {
                                    "system": "http://hl7.org/fhir/us/spl/CodeSystem/codesystem-characteristicTypes",
                                    "code": "SPLSCORE"
                                }
                            ]
                        },
                        "valueQuantity": {
                            "value": 2
                        }
                    },
                    {
                        "type": {
                            "coding": [
                                {
                                    "system": "http://hl7.org/fhir/us/spl/CodeSystem/codesystem-characteristicTypes",
                                    "code": "SPLSHAPE"
                                }
                            ]
                        },
                        "valueCodeableConcept": {
                            "coding": [
                                {
                                    "system": "http://ncicb.nci.nih.gov/xml/owl/EVS/Thesaurus.owl",
                                    "code": "C48348",
                                    "display": "ROUND"
                                }
                            ]
                        }
                    },
                    {
                        "type": {
                            "coding": [
                                {
                                    "system": "http://hl7.org/fhir/us/spl/CodeSystem/codesystem-characteristicTypes",
                                    "code": "SPLSIZE"
                                }
                            ]
                        },
                        "valueQuantity": {
                            "value": 10,
                            "unit": "mm",
                            "system": "http://unitsofmeasure.org",
                            "code": "mm"
                        }
                    }
                ],
                "identifier": [
                    {
                        "system": "http://hl7.org/fhir/sid/xxx",
                        "value": "ffff-mmmm-www"
                    }
                ]
            }
        },
        {
            "fullUrl": "http://example.org/Ingredient/AllopurinolUSPActiveIngredient",
            "resource": {
                "resourceType": "Ingredient",
                "id": "AllopurinolUSPActiveIngredient",
                "meta": {
                    "profile": [
                        "http://hl7.org/fhir/uv/emedicinal-product-info/StructureDefinition/Ingredient-uv-epi"
                    ]
                },
                "text": {
                    "status": "generated",
                    "div": "<div xmlns=\"http://www.w3.org/1999/xhtml\"><p><b>Generated Narrative: Ingredient</b><a name=\"AllopurinolUSPActiveIngredient\"> </a></p><div style=\"display: inline-block; background-color: #d9e0e7; padding: 6px; margin: 4px; border: 1px solid #8da1b4; border-radius: 5px; line-height: 60%\"><p style=\"margin-bottom: 0px\">Resource Ingredient &quot;AllopurinolUSPActiveIngredient&quot; </p><p style=\"margin-bottom: 0px\">Profile: <a href=\"StructureDefinition-SubmittedMedicinalProductIngredient.html\">SubmittedMedicinalProductIngredient</a></p></div><p><b>status</b>: active</p><p><b>for</b>: <a href=\"#ManufacturedItemDefinition_AllopurinolTablet\">See above (ManufacturedItemDefinition/AllopurinolTablet)</a></p><p><b>role</b>: active ingredient - basis of strength <span style=\"background: LightGoldenRodYellow; margin: 4px; border: 1px solid khaki\"> (<a href=\"http://terminology.hl7.org/5.0.0/CodeSystem-v3-RoleClass.html\">RoleClass</a>#ACTIB)</span></p><blockquote><p><b>substance</b></p><h3>Codes</h3><table class=\"grid\"><tr><td style=\"display: none\">-</td><td><b>Reference</b></td></tr><tr><td style=\"display: none\">*</td><td><a href=\"#SubstanceDefinition_AllopurinolIngredientDefinition\">See above (SubstanceDefinition/AllopurinolIngredientDefinition)</a></td></tr></table><h3>Strengths</h3><table class=\"grid\"><tr><td style=\"display: none\">-</td><td><b>Presentation[x]</b></td></tr><tr><td style=\"display: none\">*</td><td>100 mg<span style=\"background: LightGoldenRodYellow\"> (Details: UCUM code mg = 'mg')</span>/1</td></tr></table></blockquote></div>"
                },
                "status": "active",
                "for": [
                    {
                        "reference": "ManufacturedItemDefinition/AllopurinolTablet"
                    }
                ],
                "role": {
                    "coding": [
                        {
                            "system": "http://terminology.hl7.org/CodeSystem/v3-RoleClass",
                            "code": "ACTIB"
                        }
                    ]
                },
                "substance": {
                    "code": {
                        "reference": {
                            "reference": "SubstanceDefinition/AllopurinolIngredientDefinition"
                        }
                    },
                    "strength": [
                        {
                            "presentationRatio": {
                                "numerator": {
                                    "value": 100,
                                    "unit": "mg",
                                    "system": "http://unitsofmeasure.org",
                                    "code": "mg"
                                },
                                "denominator": {
                                    "value": 1
                                }
                            }
                        }
                    ]
                }
            }
        },
        {
            "fullUrl": "http://example.org/SubstanceDefinition/AllopurinolIngredientDefinition",
            "resource": {
                "resourceType": "SubstanceDefinition",
                "id": "AllopurinolIngredientDefinition",
                "meta": {
                    "profile": [
                        "http://hl7.org/fhir/uv/emedicinal-product-info/StructureDefinition/SubstanceDefinition-uv-epi"
                    ]
                },
                "text": {
                    "status": "generated",
                    "div": "<div xmlns=\"http://www.w3.org/1999/xhtml\"><p><b>Generated Narrative: SubstanceDefinition</b><a name=\"AllopurinolIngredientDefinition\"> </a></p><div style=\"display: inline-block; background-color: #d9e0e7; padding: 6px; margin: 4px; border: 1px solid #8da1b4; border-radius: 5px; line-height: 60%\"><p style=\"margin-bottom: 0px\">Resource SubstanceDefinition &quot;AllopurinolIngredientDefinition&quot; </p><p style=\"margin-bottom: 0px\">Profile: <a href=\"StructureDefinition-SubmittedIngredientDefinition.html\">SubmittedIngredientDefinition</a></p></div><p><b>identifier</b>: id:\u00a063CZ7GJN5I</p><h3>Moieties</h3><table class=\"grid\"><tr><td style=\"display: none\">-</td><td><b>Identifier</b></td><td><b>Name</b></td></tr><tr><td style=\"display: none\">*</td><td>id:\u00a063CZ7GJN5I</td><td>ALLOPURINOL</td></tr></table><h3>Names</h3><table class=\"grid\"><tr><td style=\"display: none\">-</td><td><b>Name</b></td></tr><tr><td style=\"display: none\">*</td><td>ALLOPURINOL</td></tr></table></div>"
                },
                "identifier": [
                    {
                        "system": "http://fdasis.nlm.nih.gov",
                        "value": "63CZ7GJN5I"
                    }
                ],
                "moiety": [
                    {
                        "identifier": {
                            "system": "http://fdasis.nlm.nih.gov",
                            "value": "63CZ7GJN5I"
                        },
                        "name": "ALLOPURINOL"
                    }
                ],
                "name": [
                    {
                        "name": "ALLOPURINOL"
                    }
                ]
            }
        },
        {
            "fullUrl": "http://example.org/Ingredient/AllopurinolUSPIngredient1",
            "resource": {
                "resourceType": "Ingredient",
                "id": "AllopurinolUSPIngredient1",
                "meta": {
                    "profile": [
                        "http://hl7.org/fhir/uv/emedicinal-product-info/StructureDefinition/Ingredient-uv-epi"
                    ]
                },
                "text": {
                    "status": "generated",
                    "div": "<div xmlns=\"http://www.w3.org/1999/xhtml\"><p><b>Generated Narrative: Ingredient</b><a name=\"AllopurinolUSPIngredient1\"> </a></p><div style=\"display: inline-block; background-color: #d9e0e7; padding: 6px; margin: 4px; border: 1px solid #8da1b4; border-radius: 5px; line-height: 60%\"><p style=\"margin-bottom: 0px\">Resource Ingredient &quot;AllopurinolUSPIngredient1&quot; </p><p style=\"margin-bottom: 0px\">Profile: <a href=\"StructureDefinition-SubmittedMedicinalProductIngredient.html\">SubmittedMedicinalProductIngredient</a></p></div><p><b>status</b>: active</p><p><b>for</b>: <a href=\"#ManufacturedItemDefinition_AllopurinolTablet\">See above (ManufacturedItemDefinition/AllopurinolTablet)</a></p><p><b>role</b>: inactive ingredient <span style=\"background: LightGoldenRodYellow; margin: 4px; border: 1px solid khaki\"> (<a href=\"http://terminology.hl7.org/5.0.0/CodeSystem-v3-RoleClass.html\">RoleClass</a>#IACT)</span></p><blockquote><p><b>substance</b></p><h3>Codes</h3><table class=\"grid\"><tr><td style=\"display: none\">-</td><td><b>Concept</b></td></tr><tr><td style=\"display: none\">*</td><td>CROSCARMELLOSE SODIUM <span style=\"background: LightGoldenRodYellow; margin: 4px; border: 1px solid khaki\"> (<a href=\"http://terminology.hl7.org/5.0.0/CodeSystem-UNII.html\">Unique Ingredient Identifier (UNII)</a>#M28OL1HH48)</span></td></tr></table></blockquote></div>"
                },
                "status": "active",
                "for": [
                    {
                        "reference": "ManufacturedItemDefinition/AllopurinolTablet"
                    }
                ],
                "role": {
                    "coding": [
                        {
                            "system": "http://terminology.hl7.org/CodeSystem/v3-RoleClass",
                            "code": "IACT"
                        }
                    ]
                },
                "substance": {
                    "code": {
                        "concept": {
                            "coding": [
                                {
                                    "system": "http://fdasis.nlm.nih.gov",
                                    "code": "M28OL1HH48",
                                    "display": "CROSCARMELLOSE SODIUM"
                                }
                            ]
                        }
                    }
                }
            }
        },
        {
            "fullUrl": "http://example.org/Ingredient/AllopurinolUSPIngredient2",
            "resource": {
                "resourceType": "Ingredient",
                "id": "AllopurinolUSPIngredient2",
                "meta": {
                    "profile": [
                        "http://hl7.org/fhir/uv/emedicinal-product-info/StructureDefinition/Ingredient-uv-epi"
                    ]
                },
                "text": {
                    "status": "generated",
                    "div": "<div xmlns=\"http://www.w3.org/1999/xhtml\"><p><b>Generated Narrative: Ingredient</b><a name=\"AllopurinolUSPIngredient2\"> </a></p><div style=\"display: inline-block; background-color: #d9e0e7; padding: 6px; margin: 4px; border: 1px solid #8da1b4; border-radius: 5px; line-height: 60%\"><p style=\"margin-bottom: 0px\">Resource Ingredient &quot;AllopurinolUSPIngredient2&quot; </p><p style=\"margin-bottom: 0px\">Profile: <a href=\"StructureDefinition-SubmittedMedicinalProductIngredient.html\">SubmittedMedicinalProductIngredient</a></p></div><p><b>status</b>: active</p><p><b>for</b>: <a href=\"#ManufacturedItemDefinition_AllopurinolTablet\">See above (ManufacturedItemDefinition/AllopurinolTablet)</a></p><p><b>role</b>: inactive ingredient <span style=\"background: LightGoldenRodYellow; margin: 4px; border: 1px solid khaki\"> (<a href=\"http://terminology.hl7.org/5.0.0/CodeSystem-v3-RoleClass.html\">RoleClass</a>#IACT)</span></p><blockquote><p><b>substance</b></p><h3>Codes</h3><table class=\"grid\"><tr><td style=\"display: none\">-</td><td><b>Concept</b></td></tr><tr><td style=\"display: none\">*</td><td>LACTOSE MONOHYDRATE <span style=\"background: LightGoldenRodYellow; margin: 4px; border: 1px solid khaki\"> (<a href=\"http://terminology.hl7.org/5.0.0/CodeSystem-UNII.html\">Unique Ingredient Identifier (UNII)</a>#EWQ57Q8I5X)</span></td></tr></table></blockquote></div>"
                },
                "status": "active",
                "for": [
                    {
                        "reference": "ManufacturedItemDefinition/AllopurinolTablet"
                    }
                ],
                "role": {
                    "coding": [
                        {
                            "system": "http://terminology.hl7.org/CodeSystem/v3-RoleClass",
                            "code": "IACT"
                        }
                    ]
                },
                "substance": {
                    "code": {
                        "concept": {
                            "coding": [
                                {
                                    "system": "http://fdasis.nlm.nih.gov",
                                    "code": "EWQ57Q8I5X",
                                    "display": "LACTOSE MONOHYDRATE"
                                }
                            ]
                        }
                    }
                }
            }
        },
        {
            "fullUrl": "http://example.org/Ingredient/AllopurinolUSPIngredient3",
            "resource": {
                "resourceType": "Ingredient",
                "id": "AllopurinolUSPIngredient3",
                "meta": {
                    "profile": [
                        "http://hl7.org/fhir/uv/emedicinal-product-info/StructureDefinition/Ingredient-uv-epi"
                    ]
                },
                "text": {
                    "status": "generated",
                    "div": "<div xmlns=\"http://www.w3.org/1999/xhtml\"><p><b>Generated Narrative: Ingredient</b><a name=\"AllopurinolUSPIngredient3\"> </a></p><div style=\"display: inline-block; background-color: #d9e0e7; padding: 6px; margin: 4px; border: 1px solid #8da1b4; border-radius: 5px; line-height: 60%\"><p style=\"margin-bottom: 0px\">Resource Ingredient &quot;AllopurinolUSPIngredient3&quot; </p><p style=\"margin-bottom: 0px\">Profile: <a href=\"StructureDefinition-SubmittedMedicinalProductIngredient.html\">SubmittedMedicinalProductIngredient</a></p></div><p><b>status</b>: active</p><p><b>for</b>: <a href=\"#ManufacturedItemDefinition_AllopurinolTablet\">See above (ManufacturedItemDefinition/AllopurinolTablet)</a></p><p><b>role</b>: inactive ingredient <span style=\"background: LightGoldenRodYellow; margin: 4px; border: 1px solid khaki\"> (<a href=\"http://terminology.hl7.org/5.0.0/CodeSystem-v3-RoleClass.html\">RoleClass</a>#IACT)</span></p><blockquote><p><b>substance</b></p><h3>Codes</h3><table class=\"grid\"><tr><td style=\"display: none\">-</td><td><b>Concept</b></td></tr><tr><td style=\"display: none\">*</td><td>MAGNESIUM STEARATE <span style=\"background: LightGoldenRodYellow; margin: 4px; border: 1px solid khaki\"> (<a href=\"http://terminology.hl7.org/5.0.0/CodeSystem-UNII.html\">Unique Ingredient Identifier (UNII)</a>#70097M6I30)</span></td></tr></table></blockquote></div>"
                },
                "status": "active",
                "for": [
                    {
                        "reference": "ManufacturedItemDefinition/AllopurinolTablet"
                    }
                ],
                "role": {
                    "coding": [
                        {
                            "system": "http://terminology.hl7.org/CodeSystem/v3-RoleClass",
                            "code": "IACT"
                        }
                    ]
                },
                "substance": {
                    "code": {
                        "concept": {
                            "coding": [
                                {
                                    "system": "http://fdasis.nlm.nih.gov",
                                    "code": "70097M6I30",
                                    "display": "MAGNESIUM STEARATE"
                                }
                            ]
                        }
                    }
                }
            }
        },
        {
            "fullUrl": "http://example.org/Ingredient/AllopurinolUSPIngredient4",
            "resource": {
                "resourceType": "Ingredient",
                "id": "AllopurinolUSPIngredient4",
                "meta": {
                    "profile": [
                        "http://hl7.org/fhir/uv/emedicinal-product-info/StructureDefinition/Ingredient-uv-epi"
                    ]
                },
                "text": {
                    "status": "generated",
                    "div": "<div xmlns=\"http://www.w3.org/1999/xhtml\"><p><b>Generated Narrative: Ingredient</b><a name=\"AllopurinolUSPIngredient4\"> </a></p><div style=\"display: inline-block; background-color: #d9e0e7; padding: 6px; margin: 4px; border: 1px solid #8da1b4; border-radius: 5px; line-height: 60%\"><p style=\"margin-bottom: 0px\">Resource Ingredient &quot;AllopurinolUSPIngredient4&quot; </p><p style=\"margin-bottom: 0px\">Profile: <a href=\"StructureDefinition-SubmittedMedicinalProductIngredient.html\">SubmittedMedicinalProductIngredient</a></p></div><p><b>status</b>: active</p><p><b>for</b>: <a href=\"#ManufacturedItemDefinition_AllopurinolTablet\">See above (ManufacturedItemDefinition/AllopurinolTablet)</a></p><p><b>role</b>: inactive ingredient <span style=\"background: LightGoldenRodYellow; margin: 4px; border: 1px solid khaki\"> (<a href=\"http://terminology.hl7.org/5.0.0/CodeSystem-v3-RoleClass.html\">RoleClass</a>#IACT)</span></p><blockquote><p><b>substance</b></p><h3>Codes</h3><table class=\"grid\"><tr><td style=\"display: none\">-</td><td><b>Concept</b></td></tr><tr><td style=\"display: none\">*</td><td>CELLULOSE, MICROCRYSTALLINE <span style=\"background: LightGoldenRodYellow; margin: 4px; border: 1px solid khaki\"> (<a href=\"http://terminology.hl7.org/5.0.0/CodeSystem-UNII.html\">Unique Ingredient Identifier (UNII)</a>#OP1R32D61U)</span></td></tr></table></blockquote></div>"
                },
                "status": "active",
                "for": [
                    {
                        "reference": "ManufacturedItemDefinition/AllopurinolTablet"
                    }
                ],
                "role": {
                    "coding": [
                        {
                            "system": "http://terminology.hl7.org/CodeSystem/v3-RoleClass",
                            "code": "IACT"
                        }
                    ]
                },
                "substance": {
                    "code": {
                        "concept": {
                            "coding": [
                                {
                                    "system": "http://fdasis.nlm.nih.gov",
                                    "code": "OP1R32D61U",
                                    "display": "CELLULOSE, MICROCRYSTALLINE"
                                }
                            ]
                        }
                    }
                }
            }
        },
        {
            "fullUrl": "http://example.org/Ingredient/AllopurinolUSPIngredient5",
            "resource": {
                "resourceType": "Ingredient",
                "id": "AllopurinolUSPIngredient5",
                "meta": {
                    "profile": [
                        "http://hl7.org/fhir/uv/emedicinal-product-info/StructureDefinition/Ingredient-uv-epi"
                    ]
                },
                "text": {
                    "status": "generated",
                    "div": "<div xmlns=\"http://www.w3.org/1999/xhtml\"><p><b>Generated Narrative: Ingredient</b><a name=\"AllopurinolUSPIngredient5\"> </a></p><div style=\"display: inline-block; background-color: #d9e0e7; padding: 6px; margin: 4px; border: 1px solid #8da1b4; border-radius: 5px; line-height: 60%\"><p style=\"margin-bottom: 0px\">Resource Ingredient &quot;AllopurinolUSPIngredient5&quot; </p><p style=\"margin-bottom: 0px\">Profile: <a href=\"StructureDefinition-SubmittedMedicinalProductIngredient.html\">SubmittedMedicinalProductIngredient</a></p></div><p><b>status</b>: active</p><p><b>for</b>: <a href=\"#ManufacturedItemDefinition_AllopurinolTablet\">See above (ManufacturedItemDefinition/AllopurinolTablet)</a></p><p><b>role</b>: inactive ingredient <span style=\"background: LightGoldenRodYellow; margin: 4px; border: 1px solid khaki\"> (<a href=\"http://terminology.hl7.org/5.0.0/CodeSystem-v3-RoleClass.html\">RoleClass</a>#IACT)</span></p><blockquote><p><b>substance</b></p><h3>Codes</h3><table class=\"grid\"><tr><td style=\"display: none\">-</td><td><b>Concept</b></td></tr><tr><td style=\"display: none\">*</td><td>STARCH, CORN <span style=\"background: LightGoldenRodYellow; margin: 4px; border: 1px solid khaki\"> (<a href=\"http://terminology.hl7.org/5.0.0/CodeSystem-UNII.html\">Unique Ingredient Identifier (UNII)</a>#O8232NY3SJ)</span></td></tr></table></blockquote></div>"
                },
                "status": "active",
                "for": [
                    {
                        "reference": "ManufacturedItemDefinition/AllopurinolTablet"
                    }
                ],
                "role": {
                    "coding": [
                        {
                            "system": "http://terminology.hl7.org/CodeSystem/v3-RoleClass",
                            "code": "IACT"
                        }
                    ]
                },
                "substance": {
                    "code": {
                        "concept": {
                            "coding": [
                                {
                                    "system": "http://fdasis.nlm.nih.gov",
                                    "code": "O8232NY3SJ",
                                    "display": "STARCH, CORN"
                                }
                            ]
                        }
                    }
                }
            }
        },
        {
            "fullUrl": "http://example.org/Ingredient/AllopurinolUSPIngredient6",
            "resource": {
                "resourceType": "Ingredient",
                "id": "AllopurinolUSPIngredient6",
                "meta": {
                    "profile": [
                        "http://hl7.org/fhir/uv/emedicinal-product-info/StructureDefinition/Ingredient-uv-epi"
                    ]
                },
                "text": {
                    "status": "generated",
                    "div": "<div xmlns=\"http://www.w3.org/1999/xhtml\"><p><b>Generated Narrative: Ingredient</b><a name=\"AllopurinolUSPIngredient6\"> </a></p><div style=\"display: inline-block; background-color: #d9e0e7; padding: 6px; margin: 4px; border: 1px solid #8da1b4; border-radius: 5px; line-height: 60%\"><p style=\"margin-bottom: 0px\">Resource Ingredient &quot;AllopurinolUSPIngredient6&quot; </p><p style=\"margin-bottom: 0px\">Profile: <a href=\"StructureDefinition-SubmittedMedicinalProductIngredient.html\">SubmittedMedicinalProductIngredient</a></p></div><p><b>status</b>: active</p><p><b>for</b>: <a href=\"#ManufacturedItemDefinition_AllopurinolTablet\">See above (ManufacturedItemDefinition/AllopurinolTablet)</a></p><p><b>role</b>: inactive ingredient <span style=\"background: LightGoldenRodYellow; margin: 4px; border: 1px solid khaki\"> (<a href=\"http://terminology.hl7.org/5.0.0/CodeSystem-v3-RoleClass.html\">RoleClass</a>#IACT)</span></p><blockquote><p><b>substance</b></p><h3>Codes</h3><table class=\"grid\"><tr><td style=\"display: none\">-</td><td><b>Concept</b></td></tr><tr><td style=\"display: none\">*</td><td>SODIUM LAURYL SULFATE <span style=\"background: LightGoldenRodYellow; margin: 4px; border: 1px solid khaki\"> (<a href=\"http://terminology.hl7.org/5.0.0/CodeSystem-UNII.html\">Unique Ingredient Identifier (UNII)</a>#368GB5141J)</span></td></tr></table></blockquote></div>"
                },
                "status": "active",
                "for": [
                    {
                        "reference": "ManufacturedItemDefinition/AllopurinolTablet"
                    }
                ],
                "role": {
                    "coding": [
                        {
                            "system": "http://terminology.hl7.org/CodeSystem/v3-RoleClass",
                            "code": "IACT"
                        }
                    ]
                },
                "substance": {
                    "code": {
                        "concept": {
                            "coding": [
                                {
                                    "system": "http://fdasis.nlm.nih.gov",
                                    "code": "368GB5141J",
                                    "display": "SODIUM LAURYL SULFATE"
                                }
                            ]
                        }
                    }
                }
            }
        },
        {
            "fullUrl": "http://example.org/PackagedProductDefinition/Allopurinol100Tablets",
            "resource": {
                "resourceType": "PackagedProductDefinition",
                "id": "Allopurinol100Tablets",
                "meta": {
                    "profile": [
                        "http://hl7.org/fhir/uv/emedicinal-product-info/StructureDefinition/PackagedProductDefinition-uv-epi"
                    ]
                },
                "text": {
                    "status": "generated",
                    "div": "<div xmlns=\"http://www.w3.org/1999/xhtml\"><p><b>Generated Narrative: PackagedProductDefinition</b><a name=\"Allopurinol100Tablets\"> </a></p><div style=\"display: inline-block; background-color: #d9e0e7; padding: 6px; margin: 4px; border: 1px solid #8da1b4; border-radius: 5px; line-height: 60%\"><p style=\"margin-bottom: 0px\">Resource PackagedProductDefinition &quot;Allopurinol100Tablets&quot; </p><p style=\"margin-bottom: 0px\">Profile: <a href=\"StructureDefinition-SubmittedMedicinalPackaging.html\">SubmittedMedicinalPackaging</a></p></div><p><b>packageFor</b>: <a href=\"#MedicinalProductDefinition_AllopurinolUSPDefinition\">See above (MedicinalProductDefinition/AllopurinolUSPDefinition)</a></p><h3>MarketingStatuses</h3><table class=\"grid\"><tr><td style=\"display: none\">-</td><td><b>Status</b></td><td><b>DateRange</b></td></tr><tr><td style=\"display: none\">*</td><td>Active <span style=\"background: LightGoldenRodYellow; margin: 4px; border: 1px solid khaki\"> (<a href=\"http://hl7.org/fhir/R5/codesystem-publication-status.html\">PublicationStatus</a>#active)</span></td><td>2009-04-06 --&gt; (ongoing)</td></tr></table><blockquote><p><b>package</b></p><p><b>identifier</b>: id:\u00a053217-187-00</p><p><b>type</b>: BOTTLE <span style=\"background: LightGoldenRodYellow; margin: 4px; border: 1px solid khaki\"> (<a href=\"http://terminology.hl7.org/5.0.0/CodeSystem-v3-nciThesaurus.html\">NCI Thesaurus</a>#C43169)</span></p><h3>Properties</h3><table class=\"grid\"><tr><td style=\"display: none\">-</td><td><b>Type</b></td><td><b>Value[x]</b></td></tr><tr><td style=\"display: none\">*</td><td>Combination Product Type <span style=\"background: LightGoldenRodYellow; margin: 4px; border: 1px solid khaki\"> (<a href=\"CodeSystem-codesystem-characteristicTypes.html\">SPL Product Characteristic Types</a>#SPLCMBPRDTP)</span></td><td>Type 0: Not a Combination Product <span style=\"background: LightGoldenRodYellow; margin: 4px; border: 1px solid khaki\"> (<a href=\"http://terminology.hl7.org/5.0.0/CodeSystem-v3-nciThesaurus.html\">NCI Thesaurus</a>#C112160)</span></td></tr></table><blockquote><p><b>containedItem</b></p><h3>Items</h3><table class=\"grid\"><tr><td style=\"display: none\">-</td><td><b>Reference</b></td></tr><tr><td style=\"display: none\">*</td><td><a href=\"#ManufacturedItemDefinition_AllopurinolTablet\">See above (ManufacturedItemDefinition/AllopurinolTablet)</a></td></tr></table><p><b>amount</b>: 100 1<span style=\"background: LightGoldenRodYellow\"> (Details: UCUM code 1 = '1')</span></p></blockquote></blockquote></div>"
                },
                "packageFor": [
                    {
                        "reference": "MedicinalProductDefinition/AllopurinolUSPDefinition"
                    }
                ],
                "marketingStatus": [
                    {
                        "status": {
                            "coding": [
                                {
                                    "system": "http://hl7.org/fhir/publication-status",
                                    "code": "active"
                                }
                            ]
                        },
                        "dateRange": {
                            "start": "2009-04-06"
                        }
                    }
                ],
                "packaging": {
                    "identifier": [
                        {
                            "system": "http://hl7.org/fhir/sid/ndc",
                            "value": "53217-187-00"
                        }
                    ],
                    "type": {
                        "coding": [
                            {
                                "system": "http://ncicb.nci.nih.gov/xml/owl/EVS/Thesaurus.owl",
                                "code": "C43169",
                                "display": "BOTTLE"
                            }
                        ]
                    },
                    "property": [
                        {
                            "type": {
                                "coding": [
                                    {
                                        "system": "http://hl7.org/fhir/us/spl/CodeSystem/codesystem-characteristicTypes",
                                        "code": "SPLCMBPRDTP"
                                    }
                                ]
                            },
                            "valueCodeableConcept": {
                                "coding": [
                                    {
                                        "system": "http://ncicb.nci.nih.gov/xml/owl/EVS/Thesaurus.owl",
                                        "code": "C112160",
                                        "display": "Type 0: Not a Combination Product"
                                    }
                                ]
                            }
                        }
                    ],
                    "containedItem": [
                        {
                            "item": {
                                "reference": {
                                    "reference": "ManufacturedItemDefinition/AllopurinolTablet"
                                }
                            },
                            "amount": {
                                "value": 100,
                                "system": "http://unitsofmeasure.org",
                                "code": "1"
                            }
                        }
                    ]
                },
                "name": "Allopurinol Packaged form"
            }
        },
        {
            "fullUrl": "http://example.org/PackagedProductDefinition/Allopurinol30Tablets",
            "resource": {
                "resourceType": "PackagedProductDefinition",
                "id": "Allopurinol30Tablets",
                "meta": {
                    "profile": [
                        "http://hl7.org/fhir/uv/emedicinal-product-info/StructureDefinition/PackagedProductDefinition-uv-epi"
                    ]
                },
                "text": {
                    "status": "generated",
                    "div": "<div xmlns=\"http://www.w3.org/1999/xhtml\"><p><b>Generated Narrative: PackagedProductDefinition</b><a name=\"Allopurinol30Tablets\"> </a></p><div style=\"display: inline-block; background-color: #d9e0e7; padding: 6px; margin: 4px; border: 1px solid #8da1b4; border-radius: 5px; line-height: 60%\"><p style=\"margin-bottom: 0px\">Resource PackagedProductDefinition &quot;Allopurinol30Tablets&quot; </p><p style=\"margin-bottom: 0px\">Profile: <a href=\"StructureDefinition-SubmittedMedicinalPackaging.html\">SubmittedMedicinalPackaging</a></p></div><p><b>packageFor</b>: <a href=\"#MedicinalProductDefinition_AllopurinolUSPDefinition\">See above (MedicinalProductDefinition/AllopurinolUSPDefinition)</a></p><h3>MarketingStatuses</h3><table class=\"grid\"><tr><td style=\"display: none\">-</td><td><b>Status</b></td><td><b>DateRange</b></td></tr><tr><td style=\"display: none\">*</td><td>Active <span style=\"background: LightGoldenRodYellow; margin: 4px; border: 1px solid khaki\"> (<a href=\"http://hl7.org/fhir/R5/codesystem-publication-status.html\">PublicationStatus</a>#active)</span></td><td>2009-04-06 --&gt; (ongoing)</td></tr></table><blockquote><p><b>package</b></p><p><b>identifier</b>: id:\u00a053217-187-30</p><p><b>type</b>: BOTTLE <span style=\"background: LightGoldenRodYellow; margin: 4px; border: 1px solid khaki\"> (<a href=\"http://terminology.hl7.org/5.0.0/CodeSystem-v3-nciThesaurus.html\">NCI Thesaurus</a>#C43169)</span></p><h3>Properties</h3><table class=\"grid\"><tr><td style=\"display: none\">-</td><td><b>Type</b></td><td><b>Value[x]</b></td></tr><tr><td style=\"display: none\">*</td><td>Combination Product Type <span style=\"background: LightGoldenRodYellow; margin: 4px; border: 1px solid khaki\"> (<a href=\"CodeSystem-codesystem-characteristicTypes.html\">SPL Product Characteristic Types</a>#SPLCMBPRDTP)</span></td><td>Type 0: Not a Combination Product <span style=\"background: LightGoldenRodYellow; margin: 4px; border: 1px solid khaki\"> (<a href=\"http://terminology.hl7.org/5.0.0/CodeSystem-v3-nciThesaurus.html\">NCI Thesaurus</a>#C112160)</span></td></tr></table><blockquote><p><b>containedItem</b></p><h3>Items</h3><table class=\"grid\"><tr><td style=\"display: none\">-</td><td><b>Reference</b></td></tr><tr><td style=\"display: none\">*</td><td><a href=\"#ManufacturedItemDefinition_AllopurinolTablet\">See above (ManufacturedItemDefinition/AllopurinolTablet)</a></td></tr></table><p><b>amount</b>: 30 1<span style=\"background: LightGoldenRodYellow\"> (Details: UCUM code 1 = '1')</span></p></blockquote></blockquote></div>"
                },
                "packageFor": [
                    {
                        "reference": "MedicinalProductDefinition/AllopurinolUSPDefinition"
                    }
                ],
                "marketingStatus": [
                    {
                        "status": {
                            "coding": [
                                {
                                    "system": "http://hl7.org/fhir/publication-status",
                                    "code": "active"
                                }
                            ]
                        },
                        "dateRange": {
                            "start": "2009-04-06"
                        }
                    }
                ],
                "packaging": {
                    "identifier": [
                        {
                            "system": "http://hl7.org/fhir/sid/ndc",
                            "value": "53217-187-30"
                        }
                    ],
                    "type": {
                        "coding": [
                            {
                                "system": "http://ncicb.nci.nih.gov/xml/owl/EVS/Thesaurus.owl",
                                "code": "C43169",
                                "display": "BOTTLE"
                            }
                        ]
                    },
                    "property": [
                        {
                            "type": {
                                "coding": [
                                    {
                                        "system": "http://hl7.org/fhir/us/spl/CodeSystem/codesystem-characteristicTypes",
                                        "code": "SPLCMBPRDTP"
                                    }
                                ]
                            },
                            "valueCodeableConcept": {
                                "coding": [
                                    {
                                        "system": "http://ncicb.nci.nih.gov/xml/owl/EVS/Thesaurus.owl",
                                        "code": "C112160",
                                        "display": "Type 0: Not a Combination Product"
                                    }
                                ]
                            }
                        }
                    ],
                    "containedItem": [
                        {
                            "item": {
                                "reference": {
                                    "reference": "ManufacturedItemDefinition/AllopurinolTablet"
                                }
                            },
                            "amount": {
                                "value": 30,
                                "system": "http://unitsofmeasure.org",
                                "code": "1"
                            }
                        }
                    ]
                },
                "name": "Allopurinol Packaged form"
            }
        },
        {
            "fullUrl": "http://example.org/PackagedProductDefinition/Allopurinol60Tablets",
            "resource": {
                "resourceType": "PackagedProductDefinition",
                "id": "Allopurinol60Tablets",
                "meta": {
                    "profile": [
                        "http://hl7.org/fhir/uv/emedicinal-product-info/StructureDefinition/PackagedProductDefinition-uv-epi"
                    ]
                },
                "text": {
                    "status": "generated",
                    "div": "<div xmlns=\"http://www.w3.org/1999/xhtml\"><p><b>Generated Narrative: PackagedProductDefinition</b><a name=\"Allopurinol60Tablets\"> </a></p><div style=\"display: inline-block; background-color: #d9e0e7; padding: 6px; margin: 4px; border: 1px solid #8da1b4; border-radius: 5px; line-height: 60%\"><p style=\"margin-bottom: 0px\">Resource PackagedProductDefinition &quot;Allopurinol60Tablets&quot; </p><p style=\"margin-bottom: 0px\">Profile: <a href=\"StructureDefinition-SubmittedMedicinalPackaging.html\">SubmittedMedicinalPackaging</a></p></div><p><b>packageFor</b>: <a href=\"#MedicinalProductDefinition_AllopurinolUSPDefinition\">See above (MedicinalProductDefinition/AllopurinolUSPDefinition)</a></p><h3>MarketingStatuses</h3><table class=\"grid\"><tr><td style=\"display: none\">-</td><td><b>Status</b></td><td><b>DateRange</b></td></tr><tr><td style=\"display: none\">*</td><td>Active <span style=\"background: LightGoldenRodYellow; margin: 4px; border: 1px solid khaki\"> (<a href=\"http://hl7.org/fhir/R5/codesystem-publication-status.html\">PublicationStatus</a>#active)</span></td><td>2009-04-06 --&gt; (ongoing)</td></tr></table><blockquote><p><b>package</b></p><p><b>identifier</b>: id:\u00a053217-187-60</p><p><b>type</b>: BOTTLE <span style=\"background: LightGoldenRodYellow; margin: 4px; border: 1px solid khaki\"> (<a href=\"http://terminology.hl7.org/5.0.0/CodeSystem-v3-nciThesaurus.html\">NCI Thesaurus</a>#C43169)</span></p><h3>Properties</h3><table class=\"grid\"><tr><td style=\"display: none\">-</td><td><b>Type</b></td><td><b>Value[x]</b></td></tr><tr><td style=\"display: none\">*</td><td>Combination Product Type <span style=\"background: LightGoldenRodYellow; margin: 4px; border: 1px solid khaki\"> (<a href=\"CodeSystem-codesystem-characteristicTypes.html\">SPL Product Characteristic Types</a>#SPLCMBPRDTP)</span></td><td>Type 0: Not a Combination Product <span style=\"background: LightGoldenRodYellow; margin: 4px; border: 1px solid khaki\"> (<a href=\"http://terminology.hl7.org/5.0.0/CodeSystem-v3-nciThesaurus.html\">NCI Thesaurus</a>#C112160)</span></td></tr></table><blockquote><p><b>containedItem</b></p><h3>Items</h3><table class=\"grid\"><tr><td style=\"display: none\">-</td><td><b>Reference</b></td></tr><tr><td style=\"display: none\">*</td><td><a href=\"#ManufacturedItemDefinition_AllopurinolTablet\">See above (ManufacturedItemDefinition/AllopurinolTablet)</a></td></tr></table><p><b>amount</b>: 60 1<span style=\"background: LightGoldenRodYellow\"> (Details: UCUM code 1 = '1')</span></p></blockquote></blockquote></div>"
                },
                "packageFor": [
                    {
                        "reference": "MedicinalProductDefinition/AllopurinolUSPDefinition"
                    }
                ],
                "marketingStatus": [
                    {
                        "status": {
                            "coding": [
                                {
                                    "system": "http://hl7.org/fhir/publication-status",
                                    "code": "active"
                                }
                            ]
                        },
                        "dateRange": {
                            "start": "2009-04-06"
                        }
                    }
                ],
                "packaging": {
                    "identifier": [
                        {
                            "system": "http://hl7.org/fhir/sid/ndc",
                            "value": "53217-187-60"
                        }
                    ],
                    "type": {
                        "coding": [
                            {
                                "system": "http://ncicb.nci.nih.gov/xml/owl/EVS/Thesaurus.owl",
                                "code": "C43169",
                                "display": "BOTTLE"
                            }
                        ]
                    },
                    "property": [
                        {
                            "type": {
                                "coding": [
                                    {
                                        "system": "http://hl7.org/fhir/us/spl/CodeSystem/codesystem-characteristicTypes",
                                        "code": "SPLCMBPRDTP"
                                    }
                                ]
                            },
                            "valueCodeableConcept": {
                                "coding": [
                                    {
                                        "system": "http://ncicb.nci.nih.gov/xml/owl/EVS/Thesaurus.owl",
                                        "code": "C112160",
                                        "display": "Type 0: Not a Combination Product"
                                    }
                                ]
                            }
                        }
                    ],
                    "containedItem": [
                        {
                            "item": {
                                "reference": {
                                    "reference": "ManufacturedItemDefinition/AllopurinolTablet"
                                }
                            },
                            "amount": {
                                "value": 60,
                                "system": "http://unitsofmeasure.org",
                                "code": "1"
                            }
                        }
                    ]
                },
                "name": "Allopurinol Packaged form"
            }
        },
        {
            "fullUrl": "http://example.org/PackagedProductDefinition/Allopurinol90Tablets",
            "resource": {
                "resourceType": "PackagedProductDefinition",
                "id": "Allopurinol90Tablets",
                "meta": {
                    "profile": [
                        "http://hl7.org/fhir/uv/emedicinal-product-info/StructureDefinition/PackagedProductDefinition-uv-epi"
                    ]
                },
                "text": {
                    "status": "generated",
                    "div": "<div xmlns=\"http://www.w3.org/1999/xhtml\"><p><b>Generated Narrative: PackagedProductDefinition</b><a name=\"Allopurinol90Tablets\"> </a></p><div style=\"display: inline-block; background-color: #d9e0e7; padding: 6px; margin: 4px; border: 1px solid #8da1b4; border-radius: 5px; line-height: 60%\"><p style=\"margin-bottom: 0px\">Resource PackagedProductDefinition &quot;Allopurinol90Tablets&quot; </p><p style=\"margin-bottom: 0px\">Profile: <a href=\"StructureDefinition-SubmittedMedicinalPackaging.html\">SubmittedMedicinalPackaging</a></p></div><p><b>packageFor</b>: <a href=\"#MedicinalProductDefinition_AllopurinolUSPDefinition\">See above (MedicinalProductDefinition/AllopurinolUSPDefinition)</a></p><h3>MarketingStatuses</h3><table class=\"grid\"><tr><td style=\"display: none\">-</td><td><b>Status</b></td><td><b>DateRange</b></td></tr><tr><td style=\"display: none\">*</td><td>Active <span style=\"background: LightGoldenRodYellow; margin: 4px; border: 1px solid khaki\"> (<a href=\"http://hl7.org/fhir/R5/codesystem-publication-status.html\">PublicationStatus</a>#active)</span></td><td>2009-04-06 --&gt; (ongoing)</td></tr></table><blockquote><p><b>package</b></p><p><b>identifier</b>: id:\u00a053217-187-90</p><p><b>type</b>: BOTTLE <span style=\"background: LightGoldenRodYellow; margin: 4px; border: 1px solid khaki\"> (<a href=\"http://terminology.hl7.org/5.0.0/CodeSystem-v3-nciThesaurus.html\">NCI Thesaurus</a>#C43169)</span></p><h3>Properties</h3><table class=\"grid\"><tr><td style=\"display: none\">-</td><td><b>Type</b></td><td><b>Value[x]</b></td></tr><tr><td style=\"display: none\">*</td><td>Combination Product Type <span style=\"background: LightGoldenRodYellow; margin: 4px; border: 1px solid khaki\"> (<a href=\"CodeSystem-codesystem-characteristicTypes.html\">SPL Product Characteristic Types</a>#SPLCMBPRDTP)</span></td><td>Type 0: Not a Combination Product <span style=\"background: LightGoldenRodYellow; margin: 4px; border: 1px solid khaki\"> (<a href=\"http://terminology.hl7.org/5.0.0/CodeSystem-v3-nciThesaurus.html\">NCI Thesaurus</a>#C112160)</span></td></tr></table><blockquote><p><b>containedItem</b></p><h3>Items</h3><table class=\"grid\"><tr><td style=\"display: none\">-</td><td><b>Reference</b></td></tr><tr><td style=\"display: none\">*</td><td><a href=\"#ManufacturedItemDefinition_AllopurinolTablet\">See above (ManufacturedItemDefinition/AllopurinolTablet)</a></td></tr></table><p><b>amount</b>: 90 1<span style=\"background: LightGoldenRodYellow\"> (Details: UCUM code 1 = '1')</span></p></blockquote></blockquote></div>"
                },
                "packageFor": [
                    {
                        "reference": "MedicinalProductDefinition/AllopurinolUSPDefinition"
                    }
                ],
                "marketingStatus": [
                    {
                        "status": {
                            "coding": [
                                {
                                    "system": "http://hl7.org/fhir/publication-status",
                                    "code": "active"
                                }
                            ]
                        },
                        "dateRange": {
                            "start": "2009-04-06"
                        }
                    }
                ],
                "packaging": {
                    "identifier": [
                        {
                            "system": "http://hl7.org/fhir/sid/ndc",
                            "value": "53217-187-90"
                        }
                    ],
                    "type": {
                        "coding": [
                            {
                                "system": "http://ncicb.nci.nih.gov/xml/owl/EVS/Thesaurus.owl",
                                "code": "C43169",
                                "display": "BOTTLE"
                            }
                        ]
                    },
                    "property": [
                        {
                            "type": {
                                "coding": [
                                    {
                                        "system": "http://hl7.org/fhir/us/spl/CodeSystem/codesystem-characteristicTypes",
                                        "code": "SPLCMBPRDTP"
                                    }
                                ]
                            },
                            "valueCodeableConcept": {
                                "coding": [
                                    {
                                        "system": "http://ncicb.nci.nih.gov/xml/owl/EVS/Thesaurus.owl",
                                        "code": "C112160",
                                        "display": "Type 0: Not a Combination Product"
                                    }
                                ]
                            }
                        }
                    ],
                    "containedItem": [
                        {
                            "item": {
                                "reference": {
                                    "reference": "ManufacturedItemDefinition/AllopurinolTablet"
                                }
                            },
                            "amount": {
                                "value": 90,
                                "system": "http://unitsofmeasure.org",
                                "code": "1"
                            }
                        }
                    ]
                },
                "name": "Allopurinol Packaged form"
            }
        },
        {
            "fullUrl": "http://example.org/RegulatedAuthorization/AllopurinolMarketing",
            "resource": {
                "resourceType": "RegulatedAuthorization",
                "id": "AllopurinolMarketing",
                "meta": {
                    "profile": [
                        "http://hl7.org/fhir/uv/emedicinal-product-info/StructureDefinition/RegulatedAuthorization-uv-epi"
                    ]
                },
                "text": {
                    "status": "generated",
                    "div": "<div xmlns=\"http://www.w3.org/1999/xhtml\"><p><b>Generated Narrative: RegulatedAuthorization</b><a name=\"AllopurinolMarketing\"> </a></p><div style=\"display: inline-block; background-color: #d9e0e7; padding: 6px; margin: 4px; border: 1px solid #8da1b4; border-radius: 5px; line-height: 60%\"><p style=\"margin-bottom: 0px\">Resource RegulatedAuthorization &quot;AllopurinolMarketing&quot; </p><p style=\"margin-bottom: 0px\">Profile: <a href=\"StructureDefinition-SubmittedMedicinalProductMarketing.html\">SubmittedMedicinalProductMarketing</a></p></div><p><b>identifier</b>: id:\u00a0NDA018832</p><p><b>subject</b>: <a href=\"#MedicinalProductDefinition_AllopurinolUSPDefinition\">See above (MedicinalProductDefinition/AllopurinolUSPDefinition)</a></p><p><b>type</b>: NDA <span style=\"background: LightGoldenRodYellow; margin: 4px; border: 1px solid khaki\"> (<a href=\"http://terminology.hl7.org/5.0.0/CodeSystem-v3-nciThesaurus.html\">NCI Thesaurus</a>#C73594)</span></p><p><b>region</b>: United States of America <span style=\"background: LightGoldenRodYellow; margin: 4px; border: 1px solid khaki\"> (<a href=\"http://terminology.hl7.org/5.0.0/CodeSystem-ISO3166Part1.html\">ISO 3166-1 Codes for the representation of names of countries and their subdivisions \u2014 Part 1: Country code</a>#USA)</span></p></div>"
                },
                "identifier": [
                    {
                        "system": "urn:oid:2.16.840.1.113883.3.150",
                        "value": "NDA018832"
                    }
                ],
                "subject": [
                    {
                        "reference": "MedicinalProductDefinition/AllopurinolUSPDefinition"
                    }
                ],
                "type": {
                    "coding": [
                        {
                            "system": "http://ncicb.nci.nih.gov/xml/owl/EVS/Thesaurus.owl",
                            "code": "C73594",
                            "display": "NDA"
                        }
                    ]
                },
                "region": [
                    {
                        "coding": [
                            {
                                "system": "urn:iso:std:iso:3166",
                                "code": "USA"
                            }
                        ]
                    }
                ],
                "holder": {
                    "reference": "http://example.org/Organization/AidarexPharmaceuticals"
                }
            }
        }
    ]
}